Folder: quantum-ocsvm-battery-anomaly-detection/result/phase_2/data

Note: README.md
# Quantum Kernel-Based Battery Anomaly Detection

**Early-Stage Degradation Detection in Lithium-Ion Batteries using Quantum One-Class Support Vector Machines**

[![Python](https://img.shields.io/badge/Python-3.8%2B-blue.svg)](https://www.python.org/)
[![Qiskit](https://img.shields.io/badge/Qiskit-1.2.4-purple.svg)](https://qiskit.org/)
[![License](https://img.shields.io/badge/License-MIT-green.svg)](LICENSE)

---

## Overview

This repository presents a novel approach to battery health monitoring using **quantum kernel methods** combined with one-class support vector machines (OC-SVM) for anomaly detection. The framework demonstrates early detection of battery degradation with significant lead-time before reaching the 80% capacity threshold, trained on only nominal (healthy) battery cycles.

### Key Highlights

- **Quantum Feature Mapping**: ZZ/Pauli entangling circuit with depth-2, 8-qubit encoding
- **Early Detection**: Quantum kernel achieves **944-cycle lead-time** (first alarm at cycle 21, 98.78% capacity remaining)
- **One-Class Learning**: Trained exclusively on first 20 nominal cycles (ν=0.05)
- **Comprehensive Benchmarking**: Comparison against RBF, Laplacian, and Polynomial kernels
- **Real Battery Data**: Analysis of 1,241 discharge cycles from lithium-ion cell degradation

---

## Methodology

### Phase 1: Data Processing & Segmentation

- **Input**: Raw current-voltage time-series (22.7M samples, 1 Hz)
- **Segmentation**: Automated discharge cycle identification using current polarity
- **Filtering**: Minimum duration (1,800s) and magnitude (0.1A) thresholds
- **Output**: 1,241 validated discharge cycles

### Phase 2: Feature Engineering

Extracted 8 physical features per cycle:

| Feature          | Description                          | Unit  |
|------------------|--------------------------------------|-------|
| `capacity_Ah`    | Discharge capacity                   | Ah    |
| `energy_Wh`      | Discharge energy                     | Wh    |
| `duration_s`     | Cycle duration                       | s     |
| `v_min`          | Minimum voltage                      | V     |
| `v_max`          | Maximum voltage                      | V     |
| `v_mean`         | Mean voltage                         | V     |
| `i_rms`          | RMS current                          | A     |
| `dVdt_abs_mean`  | Mean absolute voltage rate of change| V/s   |

### Phase 3: Quantum Kernel Training

1. **Feature Scaling**: Min-max normalization to [0, π] using training statistics
2. **Quantum Feature Map**:
   - 8-qubit parameterized circuit
   - ZZ entangling gates with nearest-neighbor + wrap-around topology
   - Pauli rotations (RZ, RY) encoding
   - Circuit depth: 52, Total gates: 80
3. **Kernel Computation**: K(x₁, x₂) = |⟨φ(x₁)|φ(x₂)⟩|² via statevector simulation
4. **OC-SVM Training**: ν-OCSVM with precomputed kernel, ν=0.05
5. **Threshold Calibration**: 5th percentile on training scores (5% FPR, anomaly when score < threshold)

### Phase 4:

File: features.csv
cycle_idx,capacity_Ah,energy_Wh,duration_s,v_min,v_max,v_mean,i_rms,dVdt_abs_mean
1,3.27018,11.6967,3680.0,3.0,4.08156,3.57664,3.19953,0.000362261
10,3.24886,11.6145,3656.0,3.0,4.08293,3.57481,3.19953,0.000359062
19,3.23462,11.5584,3640.0,3.0,4.08339,3.57321,3.19952,0.000362514
28,3.2213,11.5032,3625.0,3.0,4.08293,3.57087,3.19952,0.000365704
37,3.21329,11.47,3616.0,2.99985,4.08324,3.56942,3.19951,0.000365784
46,3.20263,11.426,3604.0,3.0,4.08339,3.56758,3.19952,0.000365848
55,3.19818,11.406,3599.0,3.0,4.08293,3.56627,3.19952,0.00036276
64,3.18309,11.3483,3582.0,3.0,4.08186,3.56505,3.19953,0.000371413
73,3.16973,11.2951,3567.0,3.0,4.08171,3.5633,3.1995,0.000367044
82,3.15729,11.2469,3553.0,3.0,4.0808,3.56208,3.19951,0.00036826
91,3.14751,11.2089,3542.0,3.0,4.08171,3.56106,3.1995,0.000371446
100,3.1333,11.1567,3526.0,3.0,4.07988,3.56056,3.19952,0.000370976
109,3.13418,11.1575,3527.0,3.0,4.08034,3.55981,3.1995,0.000372391
118,3.19196,11.3823,3592.0,3.0,4.08309,3.56579,3.19951,0.000362874
127,3.18752,11.3578,3587.0,3.0,4.08232,3.56309,3.19952,0.000363226
136,3.08973,10.9856,3477.0,3.0,4.07958,3.55539,3.1995,0.000374146
145,3.07731,10.9396,3463.0,3.0,4.07897,3.55479,3.19951,0.000370786
154,3.05596,10.8635,3439.0,3.0,4.0782,3.55473,3.1995,0.000372568
163,3.04352,10.8191,3425.0,3.0,4.07744,3.55465,3.1995,0.000373423
172,3.03641,10.7923,3417.0,3.0,4.0779,3.55417,3.19949,0.000373077
181,3.02841,10.7629,3408.0,3.0,4.07774,3.55385,3.19949,0.000378075
190,3.02131,10.7353,3400.0,3.0,4.07713,3.55307,3.19951,0.000380227
199,3.02662,10.7543,3406.0,3.0,4.07561,3.55311,3.19948,0.000378699
208,3.01864,10.728,3397.0,3.0,4.07713,3.55379,3.1995,0.000379337
217,3.01061,10.6982,3388.0,3.0,4.07729,3.55336,3.19947,0.000381287
226,3.00353,10.671,3380.0,3.0,4.07683,3.55269,3.1995,0.000383448
235,2.9973,10.6486,3373.0,3.0,4.07698,3.55261,3.19949,0.000379887
244,2.99106,10.6247,3366.0,2.99969,4.07683,3.55202,3.19947,0.000378568
253,2.98752,10.6117,3362.0,3.0,4.07591,3.55189,3.19948,0.000380884
262,2.97952,10.5826,3353.0,3.0,4.07607,3.55164,3.19949,0.000379299
271,2.97419,10.5628,3347.0,3.0,4.07546,3.55136,3.19948,0.000379474
280,2.96885,10.5428,3341.0,3.0,4.07576,3.55102,3.19948,0.000382476
289,2.96353,10.5231,3335.0,3.0,4.0753,3.55074,3.19949,0.000385072
298,2.95819,10.5037,3329.0,3.0,4.07454,3.55059,3.19948,0.00038424
307,2.95819,10.5038,3329.0,2.99985,4.075,3.55062,3.19948,0.000381791
316,2.95108,10.478,3321.0,3.0,4.0753,3.55043,3.19948,0.000383943
325,2.94486,10.4544,3314.0,3.0,4.07469,3.54993,3.19948,0.000386921
334,2.94129,10.4408,3310.0,3.0,4.07454,3.54961,3.19947,0.000385406
343,2.93595,10.4219,3304.0,3.0,4.07424,3.54961,3.19947,0.000382131
352,2.94485,10.4544,3314.0,3.0,4.07485,3.54992,3.19947,0.000379961
361,2.93508,10.4184,3303.0,2.99985,4.07439,3.54947,3.19948,0.000386699
370,2.92797,10.3922,3295.0,3.0,4.07332,3.54914,3.19949,0.000383613
379,2.92176,10.3713,3288.0,3.0,4.07378,3.54954,3.19949,0.000381552
388,2.91729,10.3529,3283.0,3.0,4.07362,3.54867,3.19947,0.000386417
397,2.91286,10.3368,3278.0,3.0,4.07347,3.54855,3.19948,0.000385453
406,2.91375,10.3395,3279.0,3.0,4.07362,3.54839,3.19948,0.000391437
415,2.90752,10.3173,3272.0,3.0,4.07286,3.54836,3.19947,0.000387038
424,2.89952,10.2877,3263.0,3.0,4.07286,3.54794,3.19947,0.000388329
433,2.89508,10.2721,3258.0,3.0,4.07317,3.54799,3.19947,0.00039374
442,2.89063,10.2556,3253.0,3.0,4.0724,3.54775,3.19947,0.000389883
451,2.89601,10.2733,3259.0,2.99985,4.07225,3.54727,3.19952,0.00038737
460,2.88707,10.2413,3249.0,3.0,4.0721,3.54715,3.19947,0.000391198
469,2.88086,10.2179,3242.0,3.0,4.07164,3.5467,3.19948,0.000392663
478,2.87642,10.2017,3237.0,3.0,4.07164,3.54654,3.19947,0.000391425
487,2.87196,10.1861,3232.0,3.0,4.07164,3.54659,3.19947,0.000390737
496,2.86841,10.1733,3228.0,3.0,4.0721,3.54652,3.19947,0.000394809
505,2.86841,10.1723,3228.0,3.0,4.07134,3.54617,3.19947,0.000391122
514,2.86131,10.1469,3220.0,3.0,4.07179,3.54612,3.19948,0.000393268
523,2.85864,10.1372,3217.0,3.0,4.07149,3.54603,3.19947,0.00039032
532,2.85419,10.1213,3212.0,3.0,4.07088,3.54598,3.19947,0.000396412
541,2.84975,10.1038,3207.0,3.0,4.07134,3.54536,3.19947,0.000393643
550,2.8533,10.1146,3211.0,3.0,4.07057,3.54476,3.19946,0.000393
559,2.84619,10.0899,3203.0,3.0,4.07073,3.5449,3.19947,0.00039282
568,2.84174,10.0736,3198.0,2.99985,4.07027,3.54474,3.19946,0.000391695
577,2.83641,10.0539,3192.0,3.0,4.07042,3.54447,3.19946,0.000395481
586,2.83197,10.037,3187.0,3.0,4.06996,3.54403,3.19947,0.000396008
595,2.83552,10.0484,3191.0,3.0,4.07042,3.54362,3.19946,0.000394169
604,2.82929,10.0271,3184.0,3.0,4.06981,3.54389,3.19945,0.000395203
613,2.82219,10.0015,3176.0,3.0,4.07012,3.54373,3.19946,0.000397572
622,2.82041,9.99422,3174.0,3.0,4.06996,3.5434,3.19946,0.000398563
631,2.81597,9.97778,3169.0,3.0,4.06935,3.54315,3.19946,0.000400129
640,2.81773,9.98372,3171.0,3.0,4.0692,3.54304,3.19944,0.000400388
649,2.81062,9.95792,3163.0,3.0,4.06905,3.54282,3.19945,0.000397125
658,2.8053,9.93805,3157.0,3.0,4.0692,3.54246,3.19945,0.000400602
667,2.80085,9.9211,3152.0,3.0,4.06905,3.54203,3.19945,0.00039828
676,2.79819,9.91348,3149.0,3.0,4.0692,3.54268,3.19946,0.000399768
685,2.81952,9.99063,3173.0,3.0,4.06935,3.54324,3.19946,0.000397248
694,2.81152,9.96121,3164.0,3.0,4.06844,3.54286,3.19946,0.000401407
703,2.80441,9.93551,3156.0,3.0,4.0692,3.54268,3.19945,0.000395477
712,2.80263,9.9283,3154.0,3.0,4.06859,3.54236,3.19945,0.000399321
721,2.79731,9.90873,3148.0,3.0,4.06859,3.54211,3.19946,0.000399225
730,2.80973,9.94358,3162.0,3.0,4.06371,3.53885,3.19944,0.000397997
739,2.79019,9.86565,3140.0,3.0,4.06203,3.53571,3.19945,0.000400771
748,2.8053,9.93481,3157.0,3.0,4.06798,3.54131,3.19945,0.000400374
757,2.79818,9.91064,3149.0,3.0,4.06874,3.54168,3.19945,0.000398659
766,2.79196,9.88779,3142.0,2.99985,4.06828,3.54139,3.19944,0.000404066
775,2.78752,9.8718,3137.0,3.0,4.06813,3.54129,3.19945,0.000399094
784,2.76619,9.78965,3113.0,3.0,4.06722,3.5389,3.19945,0.000403785
793,2.7573,9.75865,3103.0,3.0,4.06676,3.53907,3.19944,0.000404054
802,2.7582,9.76032,3104.0,3.0,4.06661,3.53852,3.19945,0.000406088
811,2.7484,9.72575,3093.0,3.0,4.06615,3.53855,3.19944,0.000408075
820,2.74841,9.72558,3093.0,3.0,4.06615,3.53848,3.19944,0.000407779
829,2.74395,9.70939,3088.0,3.0,4.06554,3.53834,3.19942,0.000404831
838,2.73775,9.68479,3081.0,3.0,4.06569,3.53736,3.19945,0.000407337
847,2.73507,9.67484,3078.0,3.0,4.06477,3.53719,3.19943,0.0004058
856,2.72977,9.65542,3072.0,3.0,4.06538,3.53694,3.19947,0.000406145
865,2.7253,9.63904,3067.0,3.0,4.06584,3.53674,3.19943,0.000407853
874,2.72619,9.64134,3068.0,3.0,4.06493,3.53643,3.19944,0.000408068
883,2.72263,9.62649,3064.0,3.0,4.06508,3.53559,3.19944,0.000406658
892,2.71108,9.58609,3051.0,3.0,4.06493,3.53576,3.19944,0.000411593
901,2.70309,9.55707,3042.0,3.0,4.06401,3.53548,3.19944,0.000411306
910,2.69507,9.52734,3033.0,2.99985,4.06432,3.53496,3.19943,0.000410665
919,2.6862,9.49631,3023.0,3.0,4.06401,3.53509,3.19944,0.000408944
928,2.67997,9.47428,3016.0,3.0,4.06416,3.53508,3.19943,0.000411412
937,2.66573,9.42047,3000.0,3.0,4.06294,3.53377,3.19941,0.000414014
946,2.65152,9.36858,2984.0,3.0,4.06233,3.53315,3.19942,0.000417104
955,2.64263,9.33705,2974.0,3.0,4.06218,3.5331,3.19942,0.000416659
964,2.62486,9.27105,2954.0,3.0,4.06142,3.53187,3.19943,0.000420566
973,2.6133,9.22881,2941.0,3.0,4.06172,3.53133,3.19942,0.000421284
982,2.59819,9.17176,2924.0,3.0,4.06035,3.52992,3.19941,0.000422272
991,2.56974,9.0691,2892.0,3.0,4.06004,3.52904,3.1994,0.000423991
1000,2.43375,8.57281,2739.0,3.0,4.05699,3.52232,3.19938,0.000447349
1009,2.37953,8.37375,2678.0,3.0,4.05409,3.51894,3.19936,0.000455548
1018,2.33241,8.20572,2625.0,3.0,4.05257,3.51798,3.19934,0.000462539
1027,2.30309,8.09857,2592.0,3.0,4.05226,3.51625,3.19935,0.000468784
1036,2.28086,8.01672,2567.0,3.0,4.04967,3.51463,3.19933,0.000471686
1045,2.24709,7.89012,2529.0,2.99985,4.04814,3.51111,3.19934,0.000475517
1054,2.20975,7.75654,2487.0,2.99985,4.04845,3.50998,3.19932,0.000485821
1063,2.1822,7.65944,2456.0,3.0,4.04845,3.50981,3.19931,0.000489967
1072,2.15463,7.55916,2425.0,3.0,4.04738,3.50817,3.19929,0.000496296
1081,2.16798,7.61135,2440.0,2.99985,4.04509,3.51064,3.19931,0.000492806
1090,2.13864,7.5077,2407.0,3.0,4.04128,3.51035,3.19929,0.000496204
1099,2.11997,7.44762,2386.0,3.0,4.04463,3.51291,3.19928,0.000504539
1108,2.06573,7.24716,2325.0,2.99985,4.04494,3.50811,3.19924,0.000513383
1117,2.03198,7.12603,2287.0,3.0,4.04356,3.50677,3.19928,0.000522385
1126,2.00087,7.01532,2252.0,3.0,4.04356,3.50597,3.19926,0.0005301
1135,1.96976,6.90398,2217.0,3.0,4.04173,3.50482,3.19924,0.000538197
1144,1.94487,6.81432,2189.0,3.0,4.04067,3.50357,3.19924,0.000544457
1153,1.9351,6.77401,2178.0,3.0,4.03624,3.50043,3.19924,0.000544685
1162,1.89243,6.62188,2130.0,3.0,4.03746,3.49897,3.19922,0.000556607
1171,1.85864,6.50081,2092.0,3.0,4.03624,3.49744,3.19919,0.000567306
1180,1.82845,6.37164,2058.0,3.0,4.02632,3.48456,3.19923,0.000573641
1189,1.78043,6.19902,2004.0,3.0,4.02525,3.48159,3.19917,0.000588954
1198,1.76354,6.15637,1985.0,3.0,4.03243,3.49075,3.19916,0.000596286
1207,1.73065,6.03557,1948.0,3.0,4.02953,3.48729,3.19914,0.000605188
1216,1.70043,5.93189,1914.0,3.0,4.02937,3.48829,3.19913,0.000615944
1225,1.65865,5.77884,1867.0,3.0,4.028,3.48388,3.19911,0.000634239
1234,1.62664,5.66427,1831.0,3.0,4.02586,3.482,3.19908,0.000643464
1241,1.60087,5.56979,1802.0,3.0,4.01701,3.47904,3.19908,0.000647979